File: Coursework/Advanced labs/Prof. Sangita Bose/XRD/Cu-Cu
10.0	31.0
10.2	30.0
10.4	39.0
10.6	35.0
10.8	34.0
11.0	42.0
11.2	29.0
11.3	27.0
11.6	40.0
11.8	36.0
12.0	40.0
12.2	38.0
12.4	49.0
12.6	42.0
12.8	51.0
13.0	46.0
13.2	41.0
13.4	49.0
13.6	43.0
13.8	43.0
14.0	50.0
14.2	51.0
14.4	44.0
14.6	48.0
14.8	43.0
15.0	37.0
15.2	40.0
15.4	33.0
15.6	41.0
15.8	48.0
16.0	52.0
16.2	38.0
16.4	35.0
16.6	45.0
16.7	48.0
17.0	45.0
17.2	44.0
17.4	41.0
17.6	38.0
17.7	44.0
18.0	37.0
18.2	43.0
18.4	43.0
18.6	35.0
18.8	43.0
19.0	32.0
19.2	48.0
19.4	35.0
19.6	43.0
19.8	41.0
20.0	34.0
20.2	41.0
20.4	34.0
20.6	33.0
20.8	35.0
21.0	33.0
21.2	42.0
21.4	46.0
21.6	32.0
21.7	31.0
22.0	37.0
22.2	46.0
22.4	31.0
22.6	38.0
22.8	28.0
23.0	30.0
23.2	36.0
23.4	33.0
23.6	38.0
23.8	46.0
24.0	43.0
24.2	39.0
24.4	36.0
24.6	36.0
24.7	33.0
25.0	35.0
25.2	40.0
25.4	46.0
25.6	38.0
25.8	40.0
26.0	41.0
26.2	40.0
26.4	42.0
26.6	37.0
26.8	42.0
27.0	43.0
27.2	36.0
27.4	42.0
27.6	38.0
27.8	40.0
28.0	44.0
28.2	39.0
28.4	42.0
28.6	41.0
28.8	39.0
29.0	44.0
29.2	32.0
29.4	49.0
29.6	45.0
29.8	47.0
30.0	46.0
30.2	44.0
30.4	38.0
30.6	40.0
30.8	47.0
31.0	39.0
31.2	49.0
31.4	34.0
31.6	41.0
31.8	44.0
32.0	44.0
32.2	49.0
32.4	45.0
32.5	44.0
32.8	40.0
33.0	42.0
33.2	36.0
33.4	38.0
33.6	43.0
33.8	38.0
34.0	33.0
34.2	42.0
34.4	38.0
34.5	35.0
34.8	40.0
35.0	32.0
35.2	48.0
35.4	39.0
35.5	35.0
35.8	36.0
36.0	41.0
36.2	30.0
36.4	36.0
36.5	33.0
36.8	36.0
37.0	36.0
37.2	36.0
37.4	38.0
37.5	44.0
37.8	43.0
38.0	27.0
38.2	41.0
38.4	32.0
38.6	38.0
38.8	40.0
39.0	37.0
39.2	32.0
39.4	43.0
39.5	45.0
39.8	33.0
40.0	32.0
40.2	38.0
40.4	35.0
40.5	36.0
40.8	30.0
41.0	34.0
41.2	26.0
41.4	28.0
41.5	36.0
41.8	33.0
42.0	35.0
42.2	35.0
42.4	41.0
42.6	31.0
42.8	41.0
43.0	36.0
43.2	57.0
43.4	89.0
43.6	119.0
43.8	158.0
44.0	131.0
44.2	97.0
44.4	39.0
44.5	34.0
44.8	39.0
45.0	28.0
45.2	31.0
45.4	34.0
45.5	30.0
45.8	29.0
46.0	33.0
46.2	33.0
46.4	32.0
46.5	31.0
46.8	32.0
47.0	32.0
47.2	34.0
47.4	33.0
47.6	28.0
47.8	31.0
48.0	27.0
48.2	31.0
48.4	31.0
48.6	29.0
48.8	30.0
49.0	27.0
49.2	29.0
49.4	29.0
49.5	21.0
49.8	27.0
50.0	25.0
50.2	31.0
50.4	45.0
50.5	44.0
50.8	65.0
51.0	56.0
51.2	34.0
51.4	32.0
51.6	34.0
51.8	26.0
52.0	33.0
52.2	27.0
52.4	23.0
52.6	24.0
52.8	28.0
53.0	20.0
53.2	26.0
53.4	27.0
53.6	25.0
53.8	16.0
54.0	27.0
54.2	21.0
54.4	24.0
54.6	20.0
54.8	23.0
55.0	22.0
55.2	27.0
55.4	19.0
55.6	22.0
55.8	19.0
56.0	17.0
56.2	21.0
56.4	23.0
56.6	22.0
56.8	22.0
57.0	21.0
57.2	16.0
57.4	32.0
57.6	21.0
57.8	19.0
58.0	25.0
58.2	27.0
58.4	24.0
58.6	23.0
58.8	24.0
59.0	20.0
59.2	29.0
59.4	27.0
59.6	21.0
59.8	24.0
60.0	21.0
60.2	22.0
60.4	22.0
60.6	19.0
60.8	19.0
61.0	17.0
61.2	18.0
61.4	17.0
61.6	20.0
61.8	17.0
62.0	22.0
62.2	21.0
62.4	19.0
62.6	19.0
62.8	18.0
63.0	16.0
63.2	16.0
63.4	24.0
63.6	22.0
63.8	17.0
64.0	19.0
64.1	24.0
64.4	20.0
64.6	15.0
64.8	20.0
65.0	17.0
65.2	20.0
65.4	16.0
65.6	15.0
65.8	19.0
66.0	18.0
66.2	19.0
66.4	18.0
66.6	18.0
66.8	19.0
67.0	20.0
67.2	16.0
67.4	21.0
67.6	17.0
67.8	18.0
68.0	15.0
68.2	20.0
68.4	20.0
68.6	18.0
68.8	17.0
69.0	20.0
69.1	20.0
69.4	18.0
69.6	18.0
69.8	21.0
70.0	19.0
70.2	16.0
70.4	14.0
70.6	20.0
70.8	12.0
71.0	19.0
71.2	18.0
71.4	15.0
71.6	19.0
71.8	18.0
72.0	17.0
72.2	15.0
72.4	25.0
72.6	22.0
72.8	22.0
73.0	18.0
73.2	12.0
73.4	17.0
73.6	18.0
73.8	14.0
74.0	22.0
74.1	25.0
74.4	17.0
74.6	25.0
74.8	18.0
75.0	15.0
75.2	17.0
75.4	15.0
75.6	17.0
75.8	15.0
76.0	17.0
76.2	13.0
76.4	20.0
76.6	19.0
76.8	15.0
77.0	20.0
77.2	17.0
77.4	18.0
77.6	19.0
77.8	16.0
78.0	14.0
78.2	16.0
78.4	14.0
78.6	16.0
78.8	19.0
79.0	19.0
79.1	15.0
79.4	17.0
79.6	19.0
79.8	18.0
80.0	18.0
80.2	13.0
80.4	17.0
80.6	20.0
80.8	17.0
81.0	15.0
81.1	16.0
81.4	20.0
81.6	16.0
81.8	15.0
82.0	13.0
82.2	19.0
82.4	14.0
82.6	19.0
82.8	18.0
83.0	15.0
83.2	15.0
83.4	19.0
83.6	10.0
83.8	20.0
84.0	13.0
84.1	15.0
84.4	16.0
84.6	14.0
84.8	14.0
85.0	13.0
85.2	19.0
85.4	13.0
85.6	17.0
85.8	16.0
86.0	18.0
86.1	13.0
86.4	15.0
86.6	14.0
86.8	15.0
87.0	19.0
87.2	15.0
87.4	17.0
87.6	19.0
87.8	19.0
88.0	14.0
88.2	16.0
88.4	19.0
88.6	13.0
88.8	17.0
89.0	12.0
89.1	20.0
89.4	19.0
89.6	13.0
89.8	23.0
90.0	20.0
90.2	27.0
90.4	19.0
90.6	21.0
90.8	17.0
91.0	12.0
91.1	20.0
91.4	15.0
91.6	20.0
91.8	20.0
92.0	16.0
92.2	19.0
92.4	14.0
92.6	16.0
92.8	23.0
93.0	19.0
93.2	12.0
93.4	19.0
93.6	13.0
93.8	15.0
94.0	15.0
94.1	15.0
94.4	15.0
94.6	16.0
94.8	25.0
95.0	23.0
95.2	25.0
95.4	26.0
95.6	19.0
95.8	18.0
96.0	16.0
96.1	16.0
96.4	15.0
96.6	17.0
96.8	13.0
97.0	14.0
97.2	28.0
97.4	13.0
97.6	15.0
97.8	16.0
98.0	17.0
98.2	17.0
98.4	19.0
98.6	16.0
98.8	16.0
99.0	19.0
99.1	17.0
99.4	23.0
99.6	15.0
99.8	20.0
100.0	19.0